File: BTPDataSet.csv
Ti,Nb,Zr,Sn,Modulus,Ms,e/a ratio,Bo,Md,Mo eq.,Bo + Md,Yield Strength (MPa),Hardness (HV),Elongation (%),Corrosion Resistance,Inferred_Phase,Fabrication Method,Heat Treatment,Cooling Rate
82,10,4,4,83.3313,801.62,4.0567,2.80536,2.45079,5.88,5.25614,538,363,7.55724,No,BCC (β),Arc Melting,700°C/2h → Furnace Cool,Slow
81,10,4,5,83.0235,766.902,4.05708,2.8032,2.44926,6.18,5.25246,550,386,13.8657,No,BCC (β),Cold Rolling + Annealing,1000°C/1h → Water Quench,Slow
80,10,4,6,82.0635,730.862,4.05746,2.801,2.44772,6.48,5.24872,562,319,10.1468,No,BCC (β),Arc Melting,800°C/1h → Water Quench,Slow
79,10,4,7,80.3222,693.429,4.05784,2.79878,2.44615,6.78,5.24493,574,445,10.4781,Yes,BCC (β),Laser Additive Manufacturing,700°C/2h → Furnace Cool,Slow
78,10,4,8,77.7225,654.522,4.05823,2.79653,2.44456,7.08,5.24109,586,413,6.06395,Yes,BCC (β),Cold Rolling + Annealing,700°C/2h → Furnace Cool,Slow
77,10,4,9,74.289,614.052,4.05863,2.79425,2.44295,7.38,5.2372,598,436,5.33016,Yes,BCC (β),Powder Metallurgy (Sintering),700°C/2h → Furnace Cool,Slow
76,10,4,10,70.1895,571.935,4.05903,2.79194,2.44132,7.68,5.23326,610,416,12.4438,Yes,BCC (β),Laser Additive Manufacturing,1000°C/1h → Water Quench,Slow
75,10,4,11,65.7372,528.111,4.05943,2.78959,2.43967,7.98,5.1881,622,497,10.6615,Yes,BCC (β),Powder Metallurgy (Sintering),700°C/2h → Furnace Cool,Slow
74,10,4,12,61.3348,482.573,4.05985,2.78721,2.43799,8.28,5.22521,634,362,9.9025,Yes,BCC (β),Arc Melting,800°C/1h → Water Quench,Slow
81,10,5,4,83.0786,781.691,4.057,2.80716,2.45363,6.35,5.26079,548,346,5.7712,No,BCC (β),Arc Melting,500°C/4h → Air Cool,Slow
80,10,5,5,82.3704,745.834,4.05738,2.805,2.45212,6.65,5.25711,560,357,9.36263,No,BCC (β),Cold Rolling + Annealing,800°C/1h → Water Quench,Slow
79,10,5,6,80.9227,708.587,4.05776,2.8028,2.45058,6.95,5.25339,572,435,11.6316,Yes,BCC (β),Cold Rolling + Annealing,700°C/2h → Furnace Cool,Slow
78,10,5,7,78.6331,669.867,4.05815,2.80058,2.44903,7.25,5.24961,584,415,14.9223,Yes,BCC (β),Powder Metallurgy (Sintering),700°C/2h → Furnace Cool,Slow
77,10,5,8,75.4826,629.588,4.05855,2.79833,2.44745,7.55,5.24578,596,380,7.90176,Yes,BCC (β),Laser Additive Manufacturing,700°C/2h → Furnace Cool,Slow
76,10,5,9,71.5833,587.667,4.05895,2.79605,2.44586,7.85,5.2419,608,472,11.1005,Yes,BCC (β),Cold Rolling + Annealing,700°C/2h → Furnace Cool,Slow
75,10,5,10,67.1981,544.053,4.05935,2.79374,2.44424,8.15,5.23797,620,363,7.6402,Yes,BCC (β),Powder Metallurgy (Sintering),700°C/2h → Furnace Cool,Slow
74,10,5,11,62.7076,498.742,4.05976,2.79139,2.44259,8.45,5.23398,632,498,5.03594,Yes,BCC (β),Laser Additive Manufacturing,800°C/1h → Water Quench,Slow
73,10,5,12,58.5216,451.818,4.06018,2.78901,2.44093,8.75,5.22994,644,493,14.9407,Yes,BCC (β),Powder Metallurgy (Sintering),1000°C/1h → Water Quench,Slow
80,10,6,4,82.586,761.917,4.0573,2.80898,2.45651,6.82,5.26549,558,345,7.62246,No,BCC (β),Laser Additive Manufacturing,1000°C/1h → Water Quench,Slow
79,10,6,5,81.4196,724.87,4.05768,2.80681,2.45501,7.12,5.26182,570,408,5.83738,Yes,BCC (β),Powder Metallurgy (Sintering),800°C/1h → Water Quench,Slow
78,10,6,6,79.4394,686.354,4.05807,2.80462,2.45348,7.42,5.25811,582,405,8.72573,Yes,BCC (β),Cold Rolling + Annealing,800°C/1h → Water Quench,Slow
77,10,6,7,76.5895,646.282,4.05847,2.8024,2.45194,7.72,5.25434,594,444,12.1279,Yes,BCC (β),Laser Additive Manufacturing,800°C/1h → Water Quench,Slow
76,10,6,8,72.9288,604.577,4.05886,2.80015,2.45037,8.02,5.25053,606,431,6.45785,Yes,BCC (β),Powder Metallurgy (Sintering),1000°C/1h → Water Quench,Slow
75,10,6,9,68.6657,561.189,4.05927,2.79787,2.44879,8.32,5.24666,618,440,10.4889,Yes,BCC (β),Powder Metallurgy (Sintering),800°C/1h → Water Quench,Slow
74,10,6,10,64.1455,516.126,4.05968,2.79556,2.44718,8.62,5.24274,630,413,7.54288,Yes,BCC (β),Cold Rolling + Annealing,800°C/1h → Water Quench,Slow
73,10,6,11,59.7804,469.478,4.06009,2.79321,2.44555,8.92,5.23876,642,450,10.3885,Yes,BCC (β),Arc Melting,1000°C/1h → Water Quench,Slow
72,10,6,12,55.9439,421.46,4.06051,2.79083,2.4439,9.22,5.23473,654,419,14.5172,Yes,BCC (β),Laser Additive Manufacturing,700°C/2h → Furnace Cool,Slow
79,10,7,4,81.8158,742.341,4.05761,2.81081,2.45942,7.29,5.27023,568,428,7.67452,Yes,BCC (β),Powder Metallurgy (Sintering),1000°C/1h → Water Quench,Slow
78,10,7,5,80.1392,704.044,4.05799,2.80865,2.45793,7.59,5.26658,580,428,10.1206,Yes,BCC (β),Cold Rolling + Annealing,500°C/4h → Air Cool,Slow
77,10,7,6,77.6,664.195,4.05839,2.80646,2.45641,7.89,5.26288,592,489,11.2245,Yes,BCC (β),Powder Metallurgy (Sintering),1000°C/1h → Water Quench,Slow
76,10,7,7,74.209,622.72,4.05878,2.80424,2.45488,8.19,5.25912,604,382,7.61344,Yes,BCC (β),Powder Metallurgy (Sintering),800°C/1h → Water Quench,Slow
75,10,7,8,70.1178,579.576,4.05919,2.80199,2.45333,8.49,5.25532,616,393,13.5565,Yes,BCC (β),Powder Metallurgy (Sintering),1000°C/1h → Water Quench,Slow
74,10,7,9,65.6269,534.776,4.05959,2.79971,2.45175,8.79,5.25146,628,384,5.43021,Yes,BCC (β),Arc Melting,500°C/4h → Air Cool,Slow
73,10,7,10,61.1358,488.422,4.06001,2.79739,2.45016,9.09,5.24755,640,482,6.17787,Yes,BCC (β),Laser Additive Manufacturing,1000°C/1h → Water Quench,Slow
72,10,7,11,57.0451,440.739,4.06043,2.79505,2.44854,9.39,5.24359,652,494,10.0558,Yes,BCC (β),Arc Melting,800°C/1h → Water Quench,Slow
71,10,7,12,53.6563,392.103,4.06085,2.79267,2.4469,9.69,5.23957,664,436,5.37822,Yes,BCC (β),Cold Rolling + Annealing,1000°C/1h → Water Quench,Slow
78,10,8,4,80.7324,722.99,4.05791,2.81267,2.46236,7.76,5.27503,578,406,14.2562,Yes,BCC (β),Arc Melting,800°C/1h → Water Quench,Slow
77,10,8,5,78.5073,683.377,4.05831,2.81051,2.46088,8.06,5.27139,590,403,10.1465,Yes,BCC (β),Cold Rolling + Annealing,700°C/2h → Furnace Cool,Slow
76,10,8,6,75.409,642.146,4.0587,2.80832,2.45938,8.36,5.2677,602,375,14.9683,Yes,BCC (β),Powder Metallurgy (Sintering),800°C/1h → Water Quench,Slow
75,10,8,7,71.5335,599.26,4.0591,2.8061,2.45786,8.66,5.26396,614,467,12.2416,Yes,BCC (β),Laser Additive Manufacturing,1000°C/1h → Water Quench,Slow
74,10,8,8,67.1293,554.738,4.05951,2.80385,2.45632,8.96,5.26017,626,363,9.74072,Yes,BCC (β),Arc Melting,800°C/1h → Water Quench,Slow
73,10,8,9,62.5694,508.692,4.05992,2.80157,2.45475,9.26,5.25632,638,434,14.2255,Yes,BCC (β),Cold Rolling + Annealing,1000°C/1h → Water Quench,Slow
72,10,8,10,58.2672,461.358,4.06034,2.79926,2.45317,9.56,5.25242,650,472,13.8047,Yes,BCC (β),Laser Additive Manufacturing,500°C/4h → Air Cool,Slow
71,10,8,11,54.5707,413.125,4.06077,2.79691,2.45156,9.86,5.24847,662,433,13.8003,Yes,BCC (β),Cold Rolling + Annealing,500°C/4h → Air Cool,Slow
70,10,8,12,51.6872,364.553,4.0612,2.79453,2.44993,10.16,5.24446,674,398,13.7049,Yes,BCC (β),Cold Rolling + Annealing,800°C/1h → Water Quench,Slow
77,10,9,4,79.3076,703.875,4.05823,2.81455,2.46533,8.23,5.27987,588,429,8.42283,Yes,BCC (β),Powder Metallurgy (Sintering),800°C/1h → Water Quench,Slow
76,10,9,5,76.5172,662.9,4.05862,2.81239,2.46386,8.53,5.27625,600,419,12.6712,Yes,BCC (β),Cold Rolling + Annealing,700°C/2h → Furnace Cool,Slow
75,10,9,6,72.894,620.281,4.05902,2.8102,2.46237,8.83,5.27257,612,406,10.6456,Yes,BCC (β),Laser Additive Manufacturing,500°C/4h → Air Cool,Slow
74,10,9,7,68.6302,576.048,4.05943,2.80798,2.46086,9.13,5.26884,624,436,11.9987,Yes,BCC (β),Powder Metallurgy (Sintering),1000°C/1h → Water Quench,Slow
73,10,9,8,64.0605,530.321,4.05984,2.80573,2.45933,9.43,5.26506,636,366,14.4315,Yes,BCC (β),Powder Metallurgy (Sintering),1000°C/1h → Water Quench,Slow
72,10,9,9,59.5964,483.346,4.06026,2.80345,2.45778,9.73,5.26123,648,394,10.3056,Yes,BCC (β),Cold Rolling + Annealing,800°C/1h → Water Quench,Slow
71,10,9,10,55.6217,435.525,4.06068,2.80114,2.45621,10.03,5.25735,660,442,11.1056,Yes,BCC (β),Powder Metallurgy (Sintering),500°C/4h → Air Cool,Slow
70,10,9,11,52.401,387.428,4.06111,2.79879,2.45462,10.33,5.25341,672,496,13.9898,Yes,BCC (β),Powder Metallurgy (Sintering),800°C/1h → Water Quench,Slow
69,10,9,12,50.041,339.794,4.06155,2.79641,2.453,10.63,5.24941,684,356,10.1846,Yes,BCC (β),Laser Additive Manufacturing,1000°C/1h → Water Quench,Slow
76,10,10,4,77.5249,685.015,4.05854,2.81644,2.46833,8.7,5.28477,598,468,11.6546,Yes,BCC (β),Cold Rolling + Annealing,800°C/1h → Water Quench,Slow
75,10,10,5,74.1825,642.672,4.05894,2.81429,2.46687,9,5.28116,610,438,14.0909,Yes,BCC (β),Powder Metallurgy (Sintering),500°C/4h → Air Cool,Slow
74,10,10,6,70.1076,598.734,4.05934,2.8121,2.4654,9.3,5.2775,622,351,5.42618,Yes,BCC (β),Powder Metallurgy (Sintering),500°C/4h → Air Cool,Slow
73,10,10,7,65.5871,553.331,4.05976,2.80988,2.4639,9.6,5.27378,634,451,14.8861,Yes,BCC (β),Cold Rolling + Annealing,500°C/4h → Air Cool,Slow
72,10,10,8,61.0157,506.721,4.06017,2.80763,2.46239,9.9,5.27002,646,387,10.0039,Yes,BCC (β),Arc Melting,800°C/1h → Water Quench,Slow
71,10,10,9,56.8006,459.315,4.06059,2.80535,2.46085,10.2,5.2662,658,350,7.27381,Yes,BCC (β),Laser Additive Manufacturing,800°C/1h → Water Quench,Slow
70,10,10,10,53.2582,411.694,4.06102,2.80304,2.45929,10.5,5.26233,670,402,7.68094,Yes,BCC (β),Laser Additive Manufacturing,800°C/1h → Water Quench,Slow
69,10,10,11,50.5539,364.606,4.06146,2.80069,2.45771,10.8,5.2584,682,431,5.95974,Yes,BCC (β),Cold Rolling + Annealing,500°C/4h → Air Cool,Slow
68,10,10,12,48.7029,318.937,4.0619,2.79831,2.4561,11.1,5.25442,694,483,12.7575,Yes,BCC (β),Arc Melting,800°C/1h → Water Quench,Slow
75,10,11,4,75.3853,666.45,4.05886,2.81836,2.47136,9.17,5.28973,608,466,7.14833,Yes,BCC (β),Cold Rolling + Annealing,1000°C/1h → Water Quench,Slow
74,10,11,5,71.5411,622.81,4.05926,2.81621,2.46992,9.47,5.28613,620,354,8.90615,Yes,BCC (β),Laser Additive Manufacturing,1000°C/1h → Water Quench,Slow
73,10,11,6,67.1265,577.732,4.05967,2.81402,2.46846,9.77,5.28248,632,441,8.17576,Yes,BCC (β),Cold Rolling + Annealing,1000°C/1h → Water Quench,Slow
72,10,11,7,62.5059,531.486,4.06009,2.8118,2.46698,10.07,5.27878,644,403,12.1465,Yes,BCC (β),Arc Melting,1000°C/1h → Water Quench,Slow
71,10,11,8,58.0953,484.493,4.06051,2.80955,2.46547,10.37,5.27503,656,372,14.288,Yes,BCC (β),Laser Additive Manufacturing,700°C/2h → Furnace Cool,Slow
70,10,11,9,54.2551,437.344,4.06093,2.80727,2.46395,10.67,5.27122,668,483,12.8868,Yes,BCC (β),Laser Additive Manufacturing,800°C/1h → Water Quench,Slow
69,10,11,10,51.2095,390.793,4.06137,2.80496,2.4624,10.97,5.26737,680,479,10.1105,Yes,BCC (β),Cold Rolling + Annealing,700°C/2h → Furnace Cool,Slow
68,10,11,11,49.0252,345.728,4.06181,2.80262,2.46084,11.27,5.26345,692,475,8.3598,Yes,BCC (β),Powder Metallurgy (Sintering),1000°C/1h → Water Quench,Slow
67,10,11,12,47.6441,303.122,4.06225,2.80024,2.45924,11.57,5.25948,704,499,11.2212,Yes,BCC (β),Cold Rolling + Annealing,700°C/2h → Furnace Cool,Slow
74,10,12,4,72.9123,648.278,4.05918,2.8203,2.47443,9.64,5.29473,618,480,11.2898,Yes,BCC (β),Arc Melting,800°C/1h → Water Quench,Slow
73,10,12,5,68.6562,603.522,4.05959,2.81815,2.473,9.94,5.29115,630,479,5.06689,Yes,BCC (β),Cold Rolling + Annealing,800°C/1h → Water Quench,Slow
72,10,12,6,64.0459,557.634,4.06,2.81596,2.47155,10.24,5.28752,642,389,14.4246,Yes,BCC (β),Powder Metallurgy (Sintering),800°C/1h → Water Quench,Slow
71,10,12,7,59.491,511.045,4.06042,2.81375,2.47009,10.54,5.28383,654,401,8.07668,Yes,BCC (β),Arc Melting,500°C/4h → Air Cool,Slow
70,10,12,8,55.3849,464.355,4.06085,2.8115,2.4686,10.84,5.28009,666,385,12.7694,Yes,BCC (β),Cold Rolling + Annealing,700°C/2h → Furnace Cool,Slow
69,10,12,9,52.0081,418.324,4.06128,2.80922,2.46708,11.14,5.2763,678,444,10.9205,Yes,BCC (β),Laser Additive Manufacturing,500°C/4h → Air Cool,Slow
68,10,12,10,49.4837,373.843,4.06172,2.80691,2.46555,11.44,5.27246,690,420,6.45732,Yes,BCC (β),Arc Melting,800°C/1h → Water Quench,Slow
67,10,12,11,47.7935,331.879,4.06216,2.80456,2.464,11.74,5.26856,702,367,14.7445,Yes,BCC (β),Powder Metallurgy (Sintering),500°C/4h → Air Cool,Slow
66,10,12,12,46.828,293.405,4.06261,2.80218,2.46242,12.04,5.26461,714,394,9.31383,Yes,BCC (β),Powder Metallurgy (Sintering),700°C/2h → Furnace Cool,Slow
81,11,4,4,82.2325,779.673,4.06271,2.8072,2.45067,6.16,5.25788,553,294,14.5493,No,BCC (β),Laser Additive Manufacturing,500°C/4h → Air Cool,Slow
80,11,4,5,81.5692,744.185,4.06312,2.80504,2.44914,6.46,5.25418,565,391,14.387,No,BCC (β),Arc Melting,800°C/1h → Water Quench,Slow
79,11,4,6,80.1785,707.338,4.06355,2.80285,2.44759,6.76,5.25043,577,393,13.5239,No,BCC (β),Powder Metallurgy (Sintering),1000°C/1h → Water Quench,Slow
78,11,4,7,77.9534,669.055,4.06397,2.80063,2.44601,7.06,5.24664,589,494,5.36595,Yes,BCC (β),Arc Melting,700°C/2h → Furnace Cool,Slow
77,11,4,8,74.8673,629.247,4.06441,2.79838,2.44441,7.36,5.24279,601,490,8.19879,Yes,BCC (β),Cold Rolling + Annealing,1000°C/1h → Water Quench,Slow
76,11,4,9,71.0235,587.825,4.06485,2.79609,2.4428,7.66,5.23889,613,391,7.8918,Yes,BCC (β),Arc Melting,500°C/4h → Air Cool,Slow
75,11,4,10,66.6777,544.717,4.06529,2.79378,2.44115,7.96,5.23494,625,385,9.08168,Yes,BCC (β),Powder Metallurgy (Sintering),500°C/4h → Air Cool,Slow
74,11,4,11,62.2089,499.891,4.06575,2.79144,2.43949,8.26,5.23093,637,364,9.09858,Yes,BCC (β),Arc Melting,800°C/1h → Water Quench,Slow
73,11,4,12,58.032,453.382,4.0662,2.78906,2.4378,8.56,5.22686,649,455,14.9222,Yes,BCC (β),Laser Additive Manufacturing,700°C/2h → Furnace Cool,Slow
80,11,5,4,81.7544,759.091,4.06304,2.80902,2.45354,6.63,5.26256,563,394,7.7866,No,BCC (β),Laser Additive Manufacturing,700°C/2h → Furnace Cool,Slow
79,11,5,5,80.6399,722.432,4.06346,2.80686,2.45201,6.93,5.25887,575,357,10.191,No,BCC (β),Arc Melting,1000°C/1h → Water Quench,Slow
78,11,5,6,78.7211,684.337,4.06389,2.80467,2.45047,7.23,5.25514,587,412,12.2491,Yes,BCC (β),Arc Melting,700°C/2h → Furnace Cool,Slow
77,11,5,7,75.9355,644.72,4.06432,2.80245,2.44891,7.53,5.25135,599,453,7.16423,Yes,BCC (β),Laser Additive Manufacturing,800°C/1h → Water Quench,Slow
76,11,5,8,72.3335,603.495,4.06476,2.8002,2.44732,7.83,5.24752,611,458,5.96205,Yes,BCC (β),Powder Metallurgy (Sintering),1000°C/1h → Water Quench,Slow
75,11,5,9,68.1151,560.593,4.0652,2.79791,2.44571,8.13,5.24363,623,460,10.0034,Yes,BCC (β),Powder Metallurgy (Sintering),1000°C/1h → Water Quench,Slow
74,11,5,10,63.6219,515.988,4.06565,2.7956,2.44408,8.43,5.23968,635,367,9.92415,Yes,BCC (β),Powder Metallurgy (Sintering),800°C/1h → Water Quench,Slow
73,11,5,11,59.2687,469.725,4.06611,2.79326,2.44243,8.73,5.23569,647,384,7.24411,Yes,BCC (β),Laser Additive Manufacturing,500°C/4h → Air Cool,Slow
72,11,5,12,55.4376,421.953,4.06657,2.79088,2.44075,9.03,5.23163,659,418,8.5881,Yes,BCC (β),Powder Metallurgy (Sintering),500°C/4h → Air Cool,Slow
79,11,6,4,81.0032,738.648,4.06337,2.81086,2.45643,7.1,5.26729,573,476,5.99416,No,BCC (β),Laser Additive Manufacturing,500°C/4h → Air Cool,Slow
78,11,6,5,79.3842,700.759,4.0638,2.8087,2.45492,7.4,5.26361,585,467,13.4898,Yes,BCC (β),Cold Rolling + Annealing,700°C/2h → Furnace Cool,Slow
77,11,6,6,76.9081,661.35,4.06423,2.80651,2.45338,7.7,5.25989,597,447,6.39651,Yes,BCC (β),Powder Metallurgy (Sintering),800°C/1h → Water Quench,Slow
76,11,6,7,73.5777,620.338,4.06467,2.80429,2.45183,8,5.25612,609,475,12.2682,Yes,BCC (β),Powder Metallurgy (Sintering),500°C/4h → Air Cool,Slow
75,11,6,8,69.536,577.66,4.06511,2.80204,2.45026,8.3,5.25229,621,365,7.99329,Yes,BCC (β),Laser Additive Manufacturing,500°C/4h → Air Cool,Slow
74,11,6,9,65.0777,533.296,4.06556,2.79975,2.44866,8.6,5.24842,633,396,11.9408,Yes,BCC (β),Cold Rolling + Annealing,1000°C/1h → Water Quench,Slow
73,11,6,10,60.6025,487.298,4.06602,2.79744,2.44704,8.9,5.24448,645,411,7.67865,Yes,BCC (β),Powder Metallurgy (Sintering),800°C/1h → Water Quench,Slow
72,11,6,11,56.5175,439.828,4.06648,2.7951,2.4454,9.2,5.2405,657,455,9.93613,Yes,BCC (β),Arc Melting,700°C/2h → Furnace Cool,Slow
71,11,6,12,53.1349,391.188,4.06695,2.79272,2.44374,9.5,5.23645,669,410,9.07756,Yes,BCC (β),Powder Metallurgy (Sintering),800°C/1h → Water Quench,Slow
78,11,7,4,79.9428,718.38,4.06371,2.81272,2.45935,7.57,5.27207,583,362,12.0458,Yes,BCC (β),Laser Additive Manufacturing,500°C/4h → Air Cool,Slow
77,11,7,5,77.7786,679.194,4.06414,2.81056,2.45785,7.87,5.26841,595,484,14.7861,Yes,BCC (β),Arc Melting,800°C/1h → Water Quench,Slow
76,11,7,6,74.7418,638.412,4.06458,2.80837,2.45633,8.17,5.2647,607,440,5.52388,Yes,BCC (β),Powder Metallurgy (Sintering),700°C/2h → Furnace Cool,Slow
75,11,7,7,70.9197,595.974,4.06502,2.80615,2.45479,8.47,5.26094,619,387,5.71455,Yes,BCC (β),Arc Melting,800°C/1h → Water Quench,Slow
74,11,7,8,66.5537,551.867,4.06547,2.8039,2.45323,8.77,5.25712,631,487,11.7682,Yes,BCC (β),Cold Rolling + Annealing,500°C/4h → Air Cool,Slow
73,11,7,9,62.0144,506.152,4.06592,2.80162,2.45164,9.07,5.25326,643,385,14.7353,Yes,BCC (β),Arc Melting,800°C/1h → Water Quench,Slow
72,11,7,10,57.7198,459.002,4.06638,2.7993,2.45004,9.37,5.24934,655,445,10.7543,Yes,BCC (β),Cold Rolling + Annealing,1000°C/1h → Water Quench,Slow
71,11,7,11,54.0275,410.731,4.06685,2.79696,2.44841,9.67,5.24536,667,490,9.89272,Yes,BCC (β),Arc Melting,800°C/1h → Water Quench,Slow
70,11,7,12,51.155,361.818,4.06733,2.79458,2.44676,9.97,5.24133,679,457,14.6548,Yes,BCC (β),Powder Metallurgy (Sintering),700°C/2h → Furnace Cool,Slow
77,11,8,4,78.5434,698.307,4.06405,2.81459,2.46231,8.04,5.2769,593,486,8.2881,Yes,BCC (β),Arc Melting,800°C/1h → Water Quench,Slow
76,11,8,5,75.8143,657.768,4.06449,2.81243,2.46082,8.34,5.27325,605,484,6.78092,Yes,BCC (β),Arc Melting,500°C/4h → Air Cool,Slow
75,11,8,6,72.2474,615.584,4.06493,2.81025,2.45931,8.64,5.26956,617,361,12.6623,Yes,BCC (β),Cold Rolling + Annealing,800°C/1h → Water Quench,Slow
74,11,8,7,68.027,571.747,4.06538,2.80803,2.45778,8.94,5.26581,629,410,5.81539,Yes,BCC (β),Laser Additive Manufacturing,1000°C/1h → Water Quench,Slow
73,11,8,8,63.4833,526.329,4.06583,2.80578,2.45623,9.24,5.26201,641,456,8.93946,Yes,BCC (β),Cold Rolling + Annealing,700°C/2h → Furnace Cool,Slow
72,11,8,9,59.03,479.513,4.06629,2.8035,2.45466,9.54,5.25815,653,441,6.60188,Yes,BCC (β),Cold Rolling + Annealing,700°C/2h → Furnace Cool,Slow
71,11,8,10,55.0589,431.625,4.06676,2.80118,2.45306,9.84,5.25425,665,464,6.49568,Yes,BCC (β),Cold Rolling + Annealing,800°C/1h → Water Quench,Slow
70,11,8,11,51.8449,383.157,4.06723,2.79884,2.45145,10.14,5.25028,677,401,9.75111,Yes,BCC (β),Arc Melting,800°C/1h → Water Quench,Slow
69,11,8,12,49.504,334.776,4.06771,2.79646,2.44981,10.44,5.24626,689,413,5.73156,Yes,BCC (β),Powder Metallurgy (Sintering),1000°C/1h → Water Quench,Slow
76,11,9,4,76.7869,678.451,4.0644,2.81649,2.46529,8.51,5.28178,603,497,12.0003,Yes,BCC (β),Laser Additive Manufacturing,500°C/4h → Air Cool,Slow
75,11,9,5,73.5028,636.531,4.06484,2.81433,2.46382,8.81,5.27815,615,364,7.89934,Yes,BCC (β),Laser Additive Manufacturing,500°C/4h → Air Cool,Slow
74,11,9,6,69.4759,592.976,4.06529,2.81215,2.46232,9.11,5.27447,627,476,13.7333,Yes,BCC (β),Arc Melting,800°C/1h → Water Quench,Slow
73,11,9,7,64.987,547.865,4.06574,2.80993,2.4608,9.41,5.27073,639,411,6.01862,Yes,BCC (β),Cold Rolling + Annealing,500°C/4h → Air Cool,Slow
72,11,9,8,60.4305,501.393,4.0662,2.80768,2.45927,9.71,5.26694,651,480,13.4951,Yes,BCC (β),Laser Additive Manufacturing,800°C/1h → Water Quench,Slow
71,11,9,9,56.2198,453.897,4.06666,2.8054,2.45771,10.01,5.2631,663,490,10.9812,Yes,BCC (β),Laser Additive Manufacturing,500°C/4h → Air Cool,Slow
70,11,9,10,52.6812,405.88,4.06713,2.80309,2.45612,10.31,5.25921,675,420,13.3215,Yes,BCC (β),Powder Metallurgy (Sintering),800°C/1h → Water Quench,Slow
69,11,9,11,49.99,358.021,4.06761,2.80074,2.45452,10.61,5.25526,687,493,10.5495,Yes,BCC (β),Laser Additive Manufacturing,700°C/2h → Furnace Cool,Slow
68,11,9,12,48.168,311.154,4.06809,2.79836,2.45289,10.91,5.25125,699,383,12.4908,Yes,BCC (β),Arc Melting,800°C/1h → Water Quench,Slow
75,11,10,4,74.6723,658.847,4.06475,2.81841,2.46831,8.98,5.28672,613,352,7.32401,Yes,BCC (β),Arc Melting,700°C/2h → Furnace Cool,Slow
74,11,10,5,70.8799,615.58,4.06519,2.81625,2.46685,9.28,5.2831,625,350,11.0493,Yes,BCC (β),Arc Melting,800°C/1h → Water Quench,Slow
73,11,10,6,66.5024,570.783,4.06565,2.81407,2.46536,9.58,5.27943,637,358,9.56307,Yes,BCC (β),Powder Metallurgy (Sintering),500°C/4h → Air Cool,Slow
72,11,10,7,61.9017,524.66,4.0661,2.81185,2.46386,9.88,5.27571,649,373,6.75305,Yes,BCC (β),Laser Additive Manufacturing,500°C/4h → Air Cool,Slow
71,11,10,8,57.4977,477.56,4.06657,2.8096,2.46234,10.18,5.27194,661,439,5.55426,Yes,BCC (β),Powder Metallurgy (Sintering),500°C/4h → Air Cool,Slow
70,11,10,9,53.6597,429.997,4.06704,2.80732,2.46079,10.48,5.26811,673,480,12.735,Yes,BCC (β),Arc Melting,1000°C/1h → Water Quench,Slow
69,11,10,10,50.6223,382.659,4.06751,2.80501,2.45922,10.78,5.26423,685,368,9.64595,Yes,BCC (β),Arc Melting,1000°C/1h → Water Quench,Slow
68,11,10,11,48.46,336.384,4.068,2.80266,2.45763,11.08,5.26029,697,493,10.1793,Yes,BCC (β),Powder Metallurgy (Sintering),800°C/1h → Water Quench,Slow
67,11,10,12,47.1188,292.125,4.06849,2.80029,2.45601,11.38,5.2563,709,434,10.9479,Yes,BCC (β),Arc Melting,800°C/1h → Water Quench,Slow
74,11,11,4,72.2208,639.577,4.0651,2.82035,2.47136,9.45,5.29171,623,474,6.65469,Yes,BCC (β),Cold Rolling + Annealing,500°C/4h → Air Cool,Slow
73,11,11,5,68.0069,595.096,4.06555,2.81819,2.46991,9.75,5.28811,635,395,9.7216,Yes,BCC (β),Powder Metallurgy (Sintering),1000°C/1h → Water Quench,Slow
72,11,11,6,63.422,549.322,4.06601,2.81601,2.46844,10.05,5.28445,647,449,6.18683,Yes,BCC (β),Cold Rolling + Annealing,500°C/4h → Air Cool,Slow
71,11,11,7,58.8771,502.616,4.06647,2.81379,2.46695,10.35,5.28075,659,476,7.62997,Yes,BCC (β),Powder Metallurgy (Sintering),700°C/2h → Furnace Cool,Slow
70,11,11,8,54.7731,455.502,4.06694,2.81155,2.46544,10.65,5.27699,671,414,12.4079,Yes,BCC (β),Powder Metallurgy (Sintering),1000°C/1h → Water Quench,Slow
69,11,11,9,51.4006,408.677,4.06741,2.80927,2.46391,10.95,5.27317,683,381,12.1317,Yes,BCC (β),Powder Metallurgy (Sintering),700°C/2h → Furnace Cool,Slow
68,11,11,10,48.892,362.983,4.0679,2.80696,2.46235,11.25,5.26931,695,424,6.22681,Yes,BCC (β),Arc Melting,1000°C/1h → Water Quench,Slow
67,11,11,11,47.2342,319.371,4.06839,2.80461,2.46077,11.55,5.26539,707,460,8.73483,Yes,BCC (β),Cold Rolling + Annealing,800°C/1h → Water Quench,Slow
66,11,11,12,46.3196,278.833,4.06888,2.80223,2.45917,11.85,5.26141,719,497,12.2379,Yes,BCC (β),Powder Metallurgy (Sintering),700°C/2h → Furnace Cool,Slow
73,11,12,4,69.479,620.8,4.06546,2.82231,2.47445,9.92,5.29676,633,410,13.5831,Yes,BCC (β),Cold Rolling + Annealing,700°C/2h → Furnace Cool,Slow
72,11,12,5,64.9687,575.37,4.06592,2.82016,2.47301,10.22,5.29317,645,415,6.34832,Yes,BCC (β),Laser Additive Manufacturing,500°C/4h → Air Cool,Slow
71,11,12,6,60.34,529.05,4.06638,2.81797,2.47156,10.52,5.28953,657,429,9.91985,Yes,BCC (β),Powder Metallurgy (Sintering),800°C/1h → Water Quench,Slow
70,11,12,7,56.0112,482.375,4.06684,2.81576,2.47008,10.82,5.28584,669,407,13.9347,Yes,BCC (β),Cold Rolling + Annealing,700°C/2h → Furnace Cool,Slow
69,11,12,8,52.3228,436.048,4.06732,2.81351,2.46858,11.12,5.28209,681,400,7.6749,Yes,BCC (β),Laser Additive Manufacturing,1000°C/1h → Water Quench,Slow
68,11,12,9,49.467,390.915,4.0678,2.81124,2.46706,11.42,5.27829,693,475,11.0989,Yes,BCC (β),Powder Metallurgy (Sintering),500°C/4h → Air Cool,Slow
67,11,12,10,47.4794,347.926,4.06829,2.80892,2.46552,11.72,5.27444,705,496,5.89755,Yes,BCC (β),Laser Additive Manufacturing,500°C/4h → Air Cool,Slow
66,11,12,11,46.2802,308.064,4.06878,2.80658,2.46395,12.02,5.27054,717,428,14.0934,Yes,BCC (β),Laser Additive Manufacturing,500°C/4h → Air Cool,Slow
65,11,12,12,45.7305,272.272,4.06928,2.8042,2.46237,12.32,5.26657,729,425,11.1639,Yes,BCC (β),Arc Melting,500°C/4h → Air Cool,Slow
80,12,4,4,80.9589,757.281,4.06878,2.80907,2.45056,6.44,5.25963,568,299,9.45157,No,BCC (β),Powder Metallurgy (Sintering),500°C/4h → Air Cool,Slow
79,12,4,5,79.8972,721.005,4.06924,2.8069,2.44902,6.74,5.25592,580,394,13.8414,No,BCC (β),Arc Melting,500°C/4h → Air Cool,Slow
78,12,4,6,78.0415,683.329,4.0697,2.80471,2.44746,7.04,5.25217,592,415,12.2136,No,BCC (β),Arc Melting,700°C/2h → Furnace Cool,Slow
77,12,4,7,75.3233,644.167,4.07017,2.80249,2.44587,7.34,5.24836,604,409,12.6306,Yes,BCC (β),Arc Melting,700°C/2h → Furnace Cool,Slow
76,12,4,8,71.7843,603.428,4.07065,2.80024,2.44426,7.64,5.24451,616,367,12.9666,Yes,BCC (β),Cold Rolling + Annealing,800°C/1h → Water Quench,Slow
75,12,4,9,67.6166,561.031,4.07114,2.79796,2.44264,7.94,5.2406,628,413,7.27893,Yes,BCC (β),Arc Melting,700°C/2h → Furnace Cool,Slow
74,12,4,10,63.1573,516.922,4.07163,2.79565,2.44098,8.24,5.23663,640,430,8.22084,Yes,BCC (β),Laser Additive Manufacturing,700°C/2h → Furnace Cool,Slow
73,12,4,11,58.8233,471.106,4.07213,2.7933,2.43931,8.54,5.23261,652,480,13.3761,Yes,BCC (β),Cold Rolling + Annealing,1000°C/1h → Water Quench,Slow
72,12,4,12,55.005,423.676,4.07263,2.79092,2.43761,8.84,5.22853,664,455,8.25318,Yes,BCC (β),Arc Melting,500°C/4h → Air Cool,Slow
79,12,5,4,80.2265,736.033,4.06914,2.8109,2.45344,6.91,5.26434,578,366,13.21,No,BCC (β),Cold Rolling + Annealing,1000°C/1h → Water Quench,Slow
78,12,5,5,78.6664,698.547,4.06961,2.80874,2.45191,7.21,5.26065,590,440,5.77897,No,BCC (β),Powder Metallurgy (Sintering),700°C/2h → Furnace Cool,Slow
77,12,5,6,76.2558,659.578,4.07008,2.80655,2.45035,7.51,5.25691,602,411,7.85251,Yes,BCC (β),Powder Metallurgy (Sintering),800°C/1h → Water Quench,Slow
76,12,5,7,72.9899,619.035,4.07055,2.80433,2.44878,7.81,5.25311,614,397,11.5342,Yes,BCC (β),Laser Additive Manufacturing,700°C/2h → Furnace Cool,Slow
75,12,5,8,69.0031,576.842,4.07104,2.80208,2.44719,8.11,5.24927,626,363,14.6517,Yes,BCC (β),Powder Metallurgy (Sintering),1000°C/1h → Water Quench,Slow
74,12,5,9,64.5839,532.95,4.07153,2.7998,2.44557,8.41,5.24537,638,473,12.6715,Yes,BCC (β),Cold Rolling + Annealing,500°C/4h → Air Cool,Slow
73,12,5,10,60.1316,487.371,4.07203,2.79749,2.44393,8.71,5.24142,650,364,6.84403,Yes,BCC (β),Laser Additive Manufacturing,500°C/4h → Air Cool,Slow
72,12,5,11,56.0598,440.209,4.07253,2.79514,2.44227,9.01,5.23741,662,475,11.1732,Yes,BCC (β),Cold Rolling + Annealing,1000°C/1h → Water Quench,Slow
71,12,5,12,52.6906,391.694,4.07304,2.79276,2.44058,9.31,5.23334,674,368,14.749,Yes,BCC (β),Arc Melting,700°C/2h → Furnace Cool,Slow
78,12,6,4,79.1891,714.902,4.06951,2.81276,2.45635,7.38,5.26911,588,475,13.9517,No,BCC (β),Laser Additive Manufacturing,700°C/2h → Furnace Cool,Slow
77,12,6,5,77.0877,676.141,4.06998,2.8106,2.45483,7.68,5.26543,600,477,5.37029,Yes,BCC (β),Cold Rolling + Annealing,700°C/2h → Furnace Cool,Slow
76,12,6,6,74.1156,635.812,4.07046,2.80841,2.45329,7.98,5.2617,612,360,5.14702,Yes,BCC (β),Laser Additive Manufacturing,800°C/1h → Water Quench,Slow
75,12,6,7,70.3518,593.84,4.07094,2.80619,2.45172,8.28,5.25792,624,484,12.4095,Yes,BCC (β),Arc Melting,500°C/4h → Air Cool,Slow
74,12,6,8,66.0299,550.183,4.07143,2.80394,2.45014,8.58,5.25408,636,363,5.08059,Yes,BCC (β),Cold Rolling + Annealing,1000°C/1h → Water Quench,Slow
73,12,6,9,61.5182,504.861,4.07192,2.80166,2.44853,8.88,5.25019,648,478,13.0614,Yes,BCC (β),Cold Rolling + Annealing,1000°C/1h → Water Quench,Slow
72,12,6,10,57.2386,457.988,4.07243,2.79935,2.4469,9.18,5.24625,660,467,13.9832,Yes,BCC (β),Powder Metallurgy (Sintering),500°C/4h → Air Cool,Slow
71,12,6,11,53.5575,409.806,4.07294,2.797,2.44525,9.48,5.24226,672,374,8.64325,Yes,BCC (β),Laser Additive Manufacturing,700°C/2h → Furnace Cool,Slow
70,12,6,12,50.7031,360.715,4.07345,2.79462,2.44358,9.78,5.2382,684,445,9.13822,Yes,BCC (β),Laser Additive Manufacturing,500°C/4h → Air Cool,Slow
77,12,7,4,77.8156,693.917,4.06989,2.81464,2.45929,7.85,5.27393,598,478,10.2175,Yes,BCC (β),Arc Melting,700°C/2h → Furnace Cool,Slow
76,12,7,5,75.1504,653.817,4.07036,2.81248,2.45778,8.15,5.27026,610,473,8.84649,Yes,BCC (β),Arc Melting,700°C/2h → Furnace Cool,Slow
75,12,7,6,71.644,612.083,4.07084,2.81029,2.45625,8.45,5.26654,622,485,9.59904,Yes,BCC (β),Laser Additive Manufacturing,500°C/4h → Air Cool,Slow
74,12,7,7,67.4725,568.677,4.07133,2.80807,2.4547,8.75,5.26277,634,402,6.78401,Yes,BCC (β),Powder Metallurgy (Sintering),500°C/4h → Air Cool,Slow
73,12,7,8,62.9614,523.629,4.07182,2.80582,2.45312,9.05,5.25895,646,417,7.67657,Yes,BCC (β),Arc Melting,700°C/2h → Furnace Cool,Slow
72,12,7,9,58.526,477.062,4.07232,2.80354,2.45153,9.35,5.25507,658,401,8.39718,Yes,BCC (β),Powder Metallurgy (Sintering),500°C/4h → Air Cool,Slow
71,12,7,10,54.5656,429.231,4.07283,2.80123,2.44991,9.65,5.25114,670,412,7.25819,Yes,BCC (β),Laser Additive Manufacturing,500°C/4h → Air Cool,Slow
70,12,7,11,51.3655,380.548,4.07335,2.79888,2.44827,9.95,5.24716,682,467,12.4399,Yes,BCC (β),Arc Melting,800°C/1h → Water Quench,Slow
69,12,7,12,49.0505,331.604,4.07387,2.79651,2.44661,10.25,5.24312,694,459,11.7327,Yes,BCC (β),Arc Melting,1000°C/1h → Water Quench,Slow
76,12,8,4,76.0863,673.103,4.07026,2.81654,2.46226,8.32,5.27879,608,355,7.37849,Yes,BCC (β),Laser Additive Manufacturing,800°C/1h → Water Quench,Slow
75,12,8,5,72.8639,631.619,4.07074,2.81438,2.46076,8.62,5.27514,620,408,5.58067,Yes,BCC (β),Laser Additive Manufacturing,1000°C/1h → Water Quench,Slow
74,12,8,6,68.8898,588.479,4.07123,2.81219,2.45924,8.92,5.27144,632,461,5.18809,Yes,BCC (β),Arc Melting,800°C/1h → Water Quench,Slow
73,12,8,7,64.4388,543.719,4.07172,2.80998,2.4577,9.22,5.26768,644,417,8.44766,Yes,BCC (β),Cold Rolling + Annealing,700°C/2h → Furnace Cool,Slow
72,12,8,8,59.9042,497.472,4.07222,2.80773,2.45614,9.52,5.26387,656,367,9.51076,Yes,BCC (β),Powder Metallurgy (Sintering),500°C/4h → Air Cool,Slow
71,12,8,9,55.7049,450.005,4.07273,2.80545,2.45456,9.82,5.26001,668,360,12.1244,Yes,BCC (β),Arc Melting,500°C/4h → Air Cool,Slow
70,12,8,10,52.1773,401.743,4.07324,2.80313,2.45296,10.12,5.25609,680,441,9.85876,Yes,BCC (β),Cold Rolling + Annealing,1000°C/1h → Water Quench,Slow
69,12,8,11,49.5062,353.289,4.07376,2.80079,2.45133,10.42,5.25212,692,361,7.64042,Yes,BCC (β),Laser Additive Manufacturing,500°C/4h → Air Cool,Slow
68,12,8,12,47.7201,305.413,4.07429,2.79841,2.44968,10.72,5.24809,704,442,10.0468,Yes,BCC (β),Cold Rolling + Annealing,800°C/1h → Water Quench,Slow
75,12,9,4,73.998,652.492,4.07064,2.81846,2.46526,8.79,5.28372,618,377,10.2507,Yes,BCC (β),Laser Additive Manufacturing,1000°C/1h → Water Quench,Slow
74,12,9,5,70.2616,609.628,4.07113,2.8163,2.46377,9.09,5.28008,630,492,7.36029,Yes,BCC (β),Laser Additive Manufacturing,700°C/2h → Furnace Cool,Slow
73,12,9,6,65.927,565.166,4.07162,2.81411,2.46227,9.39,5.27638,642,442,12.0588,Yes,BCC (β),Cold Rolling + Annealing,700°C/2h → Furnace Cool,Slow
72,12,9,7,61.3529,519.249,4.07212,2.8119,2.46074,9.69,5.27264,654,425,9.26464,Yes,BCC (β),Arc Melting,800°C/1h → Water Quench,Slow
71,12,9,8,56.9625,472.155,4.07263,2.80965,2.4592,9.99,5.26885,666,365,11.0449,Yes,BCC (β),Powder Metallurgy (Sintering),700°C/2h → Furnace Cool,Slow
70,12,9,9,53.1339,424.324,4.07314,2.80737,2.45763,10.29,5.265,678,381,7.50093,Yes,BCC (β),Powder Metallurgy (Sintering),700°C/2h → Furnace Cool,Slow
69,12,9,10,50.1115,376.365,4.07366,2.80506,2.45604,10.59,5.26109,690,372,5.97441,Yes,BCC (β),Laser Additive Manufacturing,700°C/2h → Furnace Cool,Slow
68,12,9,11,47.9782,329.059,4.07419,2.80271,2.45442,10.89,5.25713,702,486,11.8382,Yes,BCC (β),Arc Melting,800°C/1h → Water Quench,Slow
67,12,9,12,46.6839,283.321,4.07472,2.80033,2.45278,11.19,5.25312,714,443,9.93749,Yes,BCC (β),Powder Metallurgy (Sintering),500°C/4h → Air Cool,Slow
74,12,10,4,71.5699,632.154,4.07103,2.8204,2.46829,9.26,5.28869,628,354,9.50096,Yes,BCC (β),Cold Rolling + Annealing,500°C/4h → Air Cool,Slow
73,12,10,5,67.4035,587.996,4.07152,2.81824,2.46682,9.56,5.28507,640,489,5.91345,Yes,BCC (β),Powder Metallurgy (Sintering),800°C/1h → Water Quench,Slow
72,12,10,6,62.8502,542.415,4.07202,2.81606,2.46533,9.86,5.28139,652,351,7.94956,Yes,BCC (β),Powder Metallurgy (Sintering),1000°C/1h → Water Quench,Slow
71,12,10,7,58.3223,495.7,4.07252,2.81384,2.46382,10.16,5.27766,664,404,12.0609,Yes,BCC (β),Laser Additive Manufacturing,1000°C/1h → Water Quench,Slow
70,12,10,8,54.2274,448.3,4.07303,2.81159,2.46228,10.46,5.27388,676,428,5.54592,Yes,BCC (β),Arc Melting,700°C/2h → Furnace Cool,Slow
69,12,10,9,50.8662,400.837,4.07355,2.80932,2.46073,10.76,5.27004,688,382,10.5274,Yes,BCC (β),Powder Metallurgy (Sintering),700°C/2h → Furnace Cool,Slow
68,12,10,10,48.3801,354.098,4.07408,2.807,2.45915,11.06,5.26615,700,367,12.8858,Yes,BCC (β),Powder Metallurgy (Sintering),1000°C/1h → Water Quench,Slow
67,12,10,11,46.7617,309,4.07461,2.80466,2.45755,11.36,5.26221,712,407,10.5451,Yes,BCC (β),Arc Melting,500°C/4h → Air Cool,Slow
66,12,10,12,45.90517,266.535,4.07515,2.80228,2.45592,11.66,5.25821,724,352,11.9621,Yes,BCC (β),Powder Metallurgy (Sintering),700°C/2h → Furnace Cool,Slow
73,12,11,4,68.8465,612.222,4.07142,2.82236,2.47136,9.73,5.29372,638,496,12.2169,Yes,BCC (β),Laser Additive Manufacturing,500°C/4h → Air Cool,Slow
72,12,11,5,64.3731,566.977,4.07192,2.82021,2.4699,10.03,5.29011,650,406,14.0623,Yes,BCC (β),Powder Metallurgy (Sintering),700°C/2h → Furnace Cool,Slow
71,12,11,6,59.7656,520.639,4.07242,2.81802,2.46843,10.33,5.28645,662,412,6.25185,Yes,BCC (β),Laser Additive Manufacturing,800°C/1h → Water Quench,Slow
70,12,11,7,55.4471,473.668,4.07293,2.81581,2.46693,10.63,5.28273,674,464,5.6414,Yes,BCC (β),Laser Additive Manufacturing,500°C/4h → Air Cool,Slow
69,12,11,8,51.7675,426.695,4.07345,2.81356,2.46541,10.93,5.27897,686,368,7.25367,Yes,BCC (β),Arc Melting,1000°C/1h → Water Quench,Slow
68,12,11,9,48.9288,380.512,4.07397,2.81128,2.46386,11.23,5.27515,698,470,13.1502,Yes,BCC (β),Arc Melting,700°C/2h → Furnace Cool,Slow
67,12,11,10,46.9733,336.039,4.0745,2.80897,2.4623,11.53,5.27127,710,395,7.52957,Yes,BCC (β),Arc Melting,700°C/2h → Furnace Cool,Slow
66,12,11,11,45.8245,294.263,4.07504,2.80663,2.46071,11.83,5.26734,722,395,8.26215,Yes,BCC (β),Powder Metallurgy (Sintering),800°C/1h → Water Quench,Slow
65,12,11,12,45.3434,256.167,4.07559,2.80425,2.4591,12.13,5.26335,734,495,5.23301,Yes,BCC (β),Cold Rolling + Annealing,800°C/1h → Water Quench,Slow
72,12,12,4,65.8984,592.931,4.07181,2.82434,2.47447,10.2,5.29881,648,409,9.76287,Yes,BCC (β),Laser Additive Manufacturing,1000°C/1h → Water Quench,Slow
71,12,12,5,61.2715,546.963,4.07232,2.82219,2.47302,10.5,5.29521,660,377,9.79937,Yes,BCC (β),Laser Additive Manufacturing,800°C/1h → Water Quench,Slow
70,12,12,6,56.779,500.411,4.07282,2.82001,2.47156,10.8,5.29156,672,365,11.4533,Yes,BCC (β),Cold Rolling + Annealing,800°C/1h → Water Quench,Slow
69,12,12,7,52.8099,453.913,4.07334,2.8178,2.47007,11.1,5.28787,684,462,7.96209,Yes,BCC (β),Powder Metallurgy (Sintering),500°C/4h → Air Cool,Slow
68,12,12,8,49.6253,408.269,4.07386,2.81555,2.46856,11.4,5.28411,696,452,14.8812,Yes,BCC (β),Cold Rolling + Annealing,500°C/4h → Air Cool,Slow
67,12,12,9,47.3236,364.397,4.07439,2.81327,2.46703,11.7,5.28031,708,379,10.7828,Yes,BCC (β),Arc Melting,800°C/1h → Water Quench,Slow
66,12,12,10,45.8652,323.281,4.07493,2.81097,2.46548,12,5.27645,720,385,6.62349,Yes,BCC (β),Cold Rolling + Annealing,700°C/2h → Furnace Cool,Slow
65,12,12,11,45.1275,285.891,4.07548,2.80862,2.46391,12.3,5.27253,732,407,13.7546,Yes,BCC (β),Arc Melting,500°C/4h → Air Cool,Slow
64,12,12,12,44.9581,253.109,4.07603,2.80625,2.46231,12.6,5.26856,744,375,5.79614,Yes,BCC (β),Laser Additive Manufacturing,500°C/4h → Air Cool,Slow
79,13,4,4,79.4922,734.436,4.07491,2.81095,2.45045,6.72,5.2614,583,370,5.92988,No,BCC (β),Laser Additive Manufacturing,800°C/1h → Water Quench,Slow
78,13,4,5,77.9926,697.351,4.07542,2.80879,2.4489,7.02,5.25769,595,496,11.5208,No,BCC (β),Arc Melting,500°C/4h → Air Cool,Slow
77,13,4,6,75.6504,658.819,4.07593,2.8066,2.44732,7.32,5.25392,607,398,14.5708,No,BCC (β),Arc Melting,500°C/4h → Air Cool,Slow
76,13,4,7,72.4532,618.749,4.07644,2.80438,2.44573,7.62,5.25011,619,465,11.4129,Yes,BCC (β),Powder Metallurgy (Sintering),1000°C/1h → Water Quench,Slow
75,13,4,8,68.5269,577.053,4.07697,2.80213,2.44411,7.92,5.24624,631,390,11.294,Yes,BCC (β),Arc Melting,500°C/4h → Air Cool,Slow
74,13,4,9,64.1537,533.662,4.0775,2.79985,2.44247,8.22,5.24232,643,376,10.9382,Yes,BCC (β),Powder Metallurgy (Sintering),800°C/1h → Water Quench,Slow
73,13,4,10,59.732,488.555,4.07804,2.79753,2.44081,8.52,5.23835,655,360,8.62395,Yes,BCC (β),Laser Additive Manufacturing,1000°C/1h → Water Quench,Slow
72,13,4,11,55.6811,441.783,4.07858,2.79519,2.43913,8.82,5.23431,667,481,7.10424,Yes,BCC (β),Cold Rolling + Annealing,500°C/4h → Air Cool,Slow
71,13,4,12,52.3329,393.509,4.07914,2.79281,2.43742,9.12,5.23023,679,403,13.6982,Yes,BCC (β),Cold Rolling + Annealing,500°C/4h → Air Cool,Slow
78,13,5,4,78.478,712.504,4.07531,2.81281,2.45334,7.19,5.26615,593,421,8.02057,No,BCC (β),Laser Additive Manufacturing,800°C/1h → Water Quench,Slow
77,13,5,5,76.4416,674.165,4.07582,2.81065,2.4518,7.49,5.26245,605,469,14.5902,No,BCC (β),Arc Melting,1000°C/1h → Water Quench,Slow
76,13,5,6,73.5379,634.292,4.07634,2.80846,2.45024,7.79,5.2587,617,491,14.7882,Yes,BCC (β),Arc Melting,500°C/4h → Air Cool,Slow
75,13,5,7,69.8373,592.799,4.07686,2.80624,2.44865,8.09,5.25489,629,493,6.04237,Yes,BCC (β),Arc Melting,800°C/1h → Water Quench,Slow
74,13,5,8,65.5661,549.621,4.07739,2.80399,2.44705,8.39,5.25104,641,491,14.1124,Yes,BCC (β),Powder Metallurgy (Sintering),800°C/1h → Water Quench,Slow
73,13,5,9,61.0892,504.744,4.07793,2.80171,2.44542,8.69,5.24713,653,418,7.57807,Yes,BCC (β),Arc Melting,1000°C/1h → Water Quench,Slow
72,13,5,10,56.8322,458.229,4.07847,2.79939,2.44377,8.99,5.24317,665,393,14.6985,Yes,BCC (β),Powder Metallurgy (Sintering),500°C/4h → Air Cool,Slow
71,13,5,11,53.1701,410.252,4.07902,2.79705,2.4421,9.29,5.23915,677,382,12.7549,Yes,BCC (β),Powder Metallurgy (Sintering),500°C/4h → Air Cool,Slow
70,13,5,12,50.3411,361.135,4.07958,2.79467,2.4404,9.59,5.23507,689,389,14.5762,Yes,BCC (β),Arc Melting,1000°C/1h → Water Quench,Slow
77,13,6,4,77.131,690.662,4.07572,2.81469,2.45626,7.66,5.27095,603,431,9.41404,No,BCC (β),Cold Rolling + Annealing,800°C/1h → Water Quench,Slow
76,13,6,5,74.5327,651.003,4.07623,2.81253,2.45473,7.96,5.26726,615,446,14.0606,Yes,BCC (β),Cold Rolling + Annealing,800°C/1h → Water Quench,Slow
75,13,6,6,71.0912,609.729,4.07675,2.81034,2.45318,8.26,5.26352,627,469,6.08871,Yes,BCC (β),Laser Additive Manufacturing,1000°C/1h → Water Quench,Slow
74,13,6,7,66.9745,566.783,4.07728,2.80812,2.45161,8.56,5.25973,639,456,14.2545,Yes,BCC (β),Powder Metallurgy (Sintering),500°C/4h → Air Cool,Slow
73,13,6,8,62.503,522.155,4.07782,2.80587,2.45002,8.86,5.25589,651,484,6.74752,Yes,BCC (β),Powder Metallurgy (Sintering),800°C/1h → Water Quench,Slow
72,13,6,9,58.093,475.917,4.07836,2.80359,2.4484,9.16,5.25199,663,398,7.34941,Yes,BCC (β),Powder Metallurgy (Sintering),500°C/4h → Air Cool,Slow
71,13,6,10,54.151,428.256,4.07891,2.80128,2.44676,9.46,5.24804,675,382,12.4039,Yes,BCC (β),Cold Rolling + Annealing,800°C/1h → Water Quench,Slow
70,13,6,11,50.9721,379.509,4.07947,2.79893,2.4451,9.76,5.24403,687,420,6.73151,Yes,BCC (β),Laser Additive Manufacturing,700°C/2h → Furnace Cool,Slow
69,13,6,12,48.6903,330.182,4.08004,2.79655,2.44342,10.06,5.23997,699,375,12.7988,Yes,BCC (β),Laser Additive Manufacturing,800°C/1h → Water Quench,Slow
76,13,7,4,75.4298,668.938,4.07613,2.81659,2.45922,8.13,5.2758,613,446,12.4352,Yes,BCC (β),Laser Additive Manufacturing,700°C/2h → Furnace Cool,Slow
75,13,7,5,72.2729,627.901,4.07665,2.81443,2.4577,8.43,5.27213,625,448,9.15635,Yes,BCC (β),Powder Metallurgy (Sintering),1000°C/1h → Water Quench,Slow
74,13,7,6,68.3571,585.202,4.07717,2.81224,2.45616,8.73,5.2684,637,473,14.005,Yes,BCC (β),Cold Rolling + Annealing,1000°C/1h → Water Quench,Slow
73,13,7,7,63.9504,540.84,4.07771,2.81002,2.4546,9.03,5.26463,649,395,13.2511,Yes,BCC (β),Cold Rolling + Annealing,500°C/4h → Air Cool,Slow
72,13,7,8,59.445,494.896,4.07825,2.80777,2.45302,9.33,5.26079,661,367,6.87837,Yes,BCC (β),Cold Rolling + Annealing,500°C/4h → Air Cool,Slow
71,13,7,9,55.2649,447.569,4.0788,2.80549,2.45142,9.63,5.25691,673,408,10.1639,Yes,BCC (β),Laser Additive Manufacturing,800°C/1h → Water Quench,Slow
70,13,7,10,51.7556,399.208,4.07936,2.80318,2.44979,9.93,5.25297,685,475,7.0115,Yes,BCC (β),Powder Metallurgy (Sintering),500°C/4h → Air Cool,Slow
69,13,7,11,49.1117,350.334,4.07992,2.80084,2.44814,10.23,5.24898,697,388,6.68428,Yes,BCC (β),Cold Rolling + Annealing,1000°C/1h → Water Quench,Slow
[...]
59,23,6,12,51.8795,66.823,4.15031,2.81715,2.44169,12.86,5.25884,849,493,10.2251,Yes,FCC/HCP (α),Laser Additive Manufacturing,500°C/4h → Air Cool,Fast
66,23,7,4,48.573,390.965,4.14254,2.83729,2.45851,10.93,5.29579,763,394,7.91137,Yes,BCC (β),Laser Additive Manufacturing,500°C/4h → Air Cool,Slow
65,23,7,5,46.5931,342.595,4.14357,2.83515,2.45689,11.23,5.29204,775,459,6.74663,Yes,BCC (β),Cold Rolling + Annealing,800°C/1h → Water Quench,Slow
64,23,7,6,45.5994,294.498,4.14461,2.83298,2.45526,11.53,5.28824,787,447,9.86229,Yes,BCC (β),Powder Metallurgy (Sintering),1000°C/1h → Water Quench,Slow
63,23,7,7,45.4945,247.572,4.14568,2.83079,2.4536,11.83,5.28439,799,401,7.06654,Yes,BCC (β),Cold Rolling + Annealing,1000°C/1h → Water Quench,Slow
62,23,7,8,46.1133,202.836,4.14675,2.82856,2.45191,12.13,5.28047,811,468,8.75186,Yes,BCC (β),Powder Metallurgy (Sintering),800°C/1h → Water Quench,Slow
61,23,7,9,47.2758,161.351,4.14784,2.82629,2.45021,12.43,5.2765,823,404,5.14914,Yes,BCC (β),Powder Metallurgy (Sintering),800°C/1h → Water Quench,Slow
60,23,7,10,48.8182,124.132,4.14895,2.824,2.44847,12.73,5.27247,835,390,6.81173,Yes,BCC (β),Laser Additive Manufacturing,1000°C/1h → Water Quench,Fast
59,23,7,11,50.6058,92.0669,4.15008,2.82166,2.44671,13.03,5.26837,847,497,7.95266,Yes,FCC/HCP (α),Arc Melting,800°C/1h → Water Quench,Fast
58,23,7,12,52.5346,65.84,4.15122,2.8193,2.44492,13.33,5.26422,859,433,6.45072,Yes,FCC/HCP (α),Laser Additive Manufacturing,700°C/2h → Furnace Cool,Fast
65,23,8,4,46.8314,364.571,4.14336,2.83944,2.46166,11.4,5.3011,773,448,11.3886,Yes,BCC (β),Arc Melting,800°C/1h → Water Quench,Slow
64,23,8,5,45.4574,317.047,4.1444,2.8373,2.46006,11.7,5.29737,785,467,12.3221,Yes,BCC (β),Arc Melting,1000°C/1h → Water Quench,Slow
63,23,8,6,45.0175,270.782,4.14546,2.83514,2.45844,12,5.29359,797,405,5.41209,Yes,BCC (β),Powder Metallurgy (Sintering),1000°C/1h → Water Quench,Slow
62,23,8,7,45.3642,226.794,4.14653,2.83295,2.4568,12.3,5.28974,809,364,9.05885,Yes,BCC (β),Arc Melting,800°C/1h → Water Quench,Slow
61,23,8,8,46.3186,186.136,4.14762,2.83072,2.45513,12.6,5.28585,821,452,11.914,Yes,BCC (β),Laser Additive Manufacturing,500°C/4h → Air Cool,Slow
60,23,8,9,47.7091,149.813,4.14873,2.82846,2.45343,12.9,5.28189,833,405,11.4181,Yes,BCC (β),Laser Additive Manufacturing,800°C/1h → Water Quench,Fast
59,23,8,10,49.3903,118.692,4.14985,2.82616,2.45171,13.2,5.27788,845,412,5.48415,Yes,BCC (β),Cold Rolling + Annealing,800°C/1h → Water Quench,Fast
58,23,8,11,51.248,93.4351,4.15099,2.82383,2.44996,13.5,5.2738,857,402,7.47915,Yes,FCC/HCP (α),Powder Metallurgy (Sintering),800°C/1h → Water Quench,Fast
57,23,8,12,53.1965,74.4636,4.15215,2.82147,2.44819,13.8,5.26966,869,458,5.1047,Yes,FCC/HCP (α),Laser Additive Manufacturing,800°C/1h → Water Quench,Fast
64,23,9,4,45.4759,341.016,4.14419,2.84161,2.46486,11.87,5.30647,783,490,11.3612,Yes,BCC (β),Powder Metallurgy (Sintering),700°C/2h → Furnace Cool,Slow
63,23,9,5,44.6822,295.41,4.14524,2.83948,2.46327,12.17,5.30276,795,407,11.9006,Yes,BCC (β),Powder Metallurgy (Sintering),1000°C/1h → Water Quench,Slow
62,23,9,6,44.734,252.162,4.14631,2.83732,2.46167,12.47,5.29899,807,418,11.9085,Yes,BCC (β),Laser Additive Manufacturing,500°C/4h → Air Cool,Slow
61,23,9,7,45.4581,212.32,4.1474,2.83513,2.46003,12.77,5.29517,819,389,14.007,Yes,BCC (β),Laser Additive Manufacturing,700°C/2h → Furnace Cool,Slow
60,23,9,8,46.6778,176.872,4.1485,2.83291,2.45838,13.07,5.29129,831,432,14.3221,Yes,BCC (β),Cold Rolling + Annealing,700°C/2h → Furnace Cool,Slow
59,23,9,9,48.2375,146.666,4.14962,2.83065,2.4567,13.37,5.28735,843,457,13.7183,Yes,BCC (β),Laser Additive Manufacturing,500°C/4h → Air Cool,Fast
58,23,9,10,50.0122,122.344,4.15075,2.82836,2.45499,13.67,5.28335,855,401,12.6893,Yes,FCC/HCP (α),Laser Additive Manufacturing,700°C/2h → Furnace Cool,Fast
57,23,9,11,51.9069,104.303,4.15191,2.82603,2.45326,13.97,5.27929,867,388,12.1853,Yes,FCC/HCP (α),Arc Melting,700°C/2h → Furnace Cool,Fast
56,23,9,12,53.8523,92.6908,4.15308,2.82367,2.4515,14.27,5.27517,879,419,14.0232,Yes,FCC/HCP (α),Powder Metallurgy (Sintering),500°C/4h → Air Cool,Fast
63,23,10,4,44.4955,321.442,4.14503,2.84381,2.46809,12.34,5.3119,793,376,5.23465,Yes,BCC (β),Cold Rolling + Annealing,700°C/2h → Furnace Cool,Slow
62,23,10,5,44.2301,278.92,4.14609,2.84169,2.46652,12.64,5.30821,805,412,14.1612,Yes,BCC (β),Cold Rolling + Annealing,800°C/1h → Water Quench,Slow
61,23,10,6,44.7014,239.871,4.14718,2.83953,2.46493,12.94,5.30446,817,400,12.138,Yes,BCC (β),Laser Additive Manufacturing,500°C/4h → Air Cool,Slow
60,23,10,7,45.7301,205.269,4.14827,2.83734,2.46331,13.24,5.30065,829,415,5.56565,Yes,BCC (β),Powder Metallurgy (Sintering),500°C/4h → Air Cool,Slow
59,23,10,8,47.1518,175.942,4.14939,2.83512,2.46167,13.54,5.29679,841,494,12.7585,Yes,BCC (β),Laser Additive Manufacturing,1000°C/1h → Water Quench,Slow
58,23,10,9,48.8307,152.51,4.15052,2.83287,2.46,13.84,5.29287,853,392,5.30699,Yes,FCC/HCP (α),Powder Metallurgy (Sintering),500°C/4h → Air Cool,Slow
57,23,10,10,50.6618,135.347,4.15167,2.83058,2.45831,14.14,5.28889,865,430,7.389,Yes,FCC/HCP (α),Arc Melting,800°C/1h → Water Quench,Fast
56,23,10,11,52.5675,124.579,4.15284,2.82826,2.45659,14.44,5.28485,877,355,11.8769,Yes,FCC/HCP (α),Arc Melting,1000°C/1h → Water Quench,Fast
55,23,10,12,54.4924,120.107,4.15402,2.8259,2.45485,14.74,5.28074,889,493,8.71464,Yes,FCC/HCP (α),Arc Melting,1000°C/1h → Water Quench,Fast
62,23,11,4,43.8602,307.03,4.14587,2.84604,2.47136,12.81,5.3174,803,446,14.8524,Yes,BCC (β),Laser Additive Manufacturing,1000°C/1h → Water Quench,Slow
61,23,11,5,44.0557,268.744,4.14695,2.84392,2.4698,13.11,5.31372,815,397,11.6527,Yes,BCC (β),Laser Additive Manufacturing,1000°C/1h → Water Quench,Slow
60,23,11,6,44.8723,234.95,4.14805,2.84177,2.46822,13.41,5.30999,827,483,8.29367,Yes,BCC (β),Arc Melting,800°C/1h → Water Quench,Slow
59,23,11,7,46.1383,206.456,4.14916,2.83958,2.46662,13.71,5.30621,839,396,9.9367,Yes,BCC (β),Arc Melting,800°C/1h → Water Quench,Slow
58,23,11,8,47.7074,183.859,4.15029,2.83737,2.465,14.01,5.30236,851,399,5.65472,Yes,FCC/HCP (α),Laser Additive Manufacturing,700°C/2h → Furnace Cool,Slow
57,23,11,9,49.4642,167.511,4.15144,2.83511,2.46335,14.31,5.29846,863,453,6.87372,Yes,FCC/HCP (α),Arc Melting,800°C/1h → Water Quench,Slow
56,23,11,10,51.322,157.518,4.1526,2.83283,2.46167,14.61,5.2945,875,464,6.83723,Yes,FCC/HCP (α),Powder Metallurgy (Sintering),1000°C/1h → Water Quench,Slow
55,23,11,11,53.2185,153.765,4.15378,2.83051,2.45997,14.91,5.29048,887,397,7.17531,Yes,FCC/HCP (α),Powder Metallurgy (Sintering),1000°C/1h → Water Quench,Slow
54,23,11,12,55.1099,155.949,4.15498,2.82815,2.45824,15.21,5.28639,899,497,10.243,Yes,FCC/HCP (α),Laser Additive Manufacturing,500°C/4h → Air Cool,Slow
61,23,12,4,43.5284,298.875,4.14673,2.84829,2.47467,13.28,5.32296,813,417,14.9664,Yes,BCC (β),Laser Additive Manufacturing,700°C/2h → Furnace Cool,Slow
60,23,12,5,44.1109,265.841,4.14782,2.84618,2.47313,13.58,5.3193,825,433,8.09367,Yes,BCC (β),Arc Melting,500°C/4h → Air Cool,Slow
59,23,12,6,45.2024,238.125,4.14893,2.84403,2.47156,13.88,5.31559,837,498,8.19955,Yes,BCC (β),Arc Melting,1000°C/1h → Water Quench,Slow
58,23,12,7,46.6465,216.299,4.15006,2.84185,2.46998,14.18,5.31183,849,455,10.6391,Yes,FCC/HCP (α),Powder Metallurgy (Sintering),500°C/4h → Air Cool,Slow
57,23,12,8,48.3171,200.695,4.1512,2.83963,2.46837,14.48,5.308,861,392,7.76529,Yes,FCC/HCP (α),Powder Metallurgy (Sintering),500°C/4h → Air Cool,Slow
56,23,12,9,50.1182,191.4,4.15236,2.83739,2.46673,14.78,5.30412,873,434,9.02778,Yes,FCC/HCP (α),Powder Metallurgy (Sintering),800°C/1h → Water Quench,Slow
55,23,12,10,51.9796,188.279,4.15354,2.8351,2.46507,15.08,5.30018,885,413,9.65038,Yes,FCC/HCP (α),Laser Additive Manufacturing,800°C/1h → Water Quench,Slow
54,23,12,11,53.8515,191.021,4.15474,2.83279,2.46339,15.38,5.29617,897,379,6.56682,Yes,FCC/HCP (α),Arc Melting,500°C/4h → Air Cool,Slow
53,23,12,12,55.6998,199.178,4.15595,2.83043,2.46167,15.68,5.2921,909,410,8.57525,Yes,FCC/HCP (α),Laser Additive Manufacturing,700°C/2h → Furnace Cool,Slow
68,24,4,4,53.7897,449.545,4.14707,2.83311,2.44912,9.8,5.28223,748,450,9.73942,No,BCC (β),Arc Melting,700°C/2h → Furnace Cool,Slow
67,24,4,5,50.7562,402.228,4.14812,2.83097,2.44746,10.1,5.27842,760,445,13.0999,No,BCC (β),Laser Additive Manufacturing,700°C/2h → Furnace Cool,Slow
66,24,4,6,48.633,353.59,4.14919,2.8288,2.44577,10.4,5.27457,772,425,11.3767,No,BCC (β),Powder Metallurgy (Sintering),700°C/2h → Furnace Cool,Slow
65,24,4,7,47.5038,304.058,4.15027,2.82659,2.44406,10.7,5.27066,784,413,11.4223,Yes,FCC/HCP (α),Powder Metallurgy (Sintering),800°C/1h → Water Quench,Slow
64,24,4,8,47.3028,254.255,4.15137,2.82436,2.44233,11,5.26669,796,468,7.95648,Yes,FCC/HCP (α),Laser Additive Manufacturing,700°C/2h → Furnace Cool,Slow
63,24,4,9,47.8766,204.989,4.15248,2.82209,2.44057,11.3,5.26266,808,456,9.63706,Yes,FCC/HCP (α),Powder Metallurgy (Sintering),500°C/4h → Air Cool,Slow
62,24,4,10,49.0418,157.225,4.15361,2.81979,2.43878,11.6,5.25857,820,352,13.279,Yes,FCC/HCP (α),Cold Rolling + Annealing,800°C/1h → Water Quench,Slow
61,24,4,11,50.624,112.025,4.15476,2.81745,2.43697,11.9,5.25442,832,447,10.6076,Yes,FCC/HCP (α),Arc Melting,800°C/1h → Water Quench,Fast
60,24,4,12,52.4754,70.4625,4.15592,2.81508,2.43513,12.2,5.25021,844,405,7.29464,Yes,FCC/HCP (α),Cold Rolling + Annealing,500°C/4h → Air Cool,Fast
67,24,5,4,51.3779,419.159,4.14791,2.83521,2.45219,10.27,5.2874,758,394,5.37703,No,BCC (β),Powder Metallurgy (Sintering),500°C/4h → Air Cool,Slow
66,24,5,5,48.8786,370.877,4.14897,2.83307,2.45054,10.57,5.28361,770,491,6.43703,No,BCC (β),Powder Metallurgy (Sintering),500°C/4h → Air Cool,Slow
65,24,5,6,47.3626,321.767,4.15005,2.8309,2.44887,10.87,5.27977,782,460,11.1207,Yes,FCC/HCP (α),Laser Additive Manufacturing,700°C/2h → Furnace Cool,Slow
64,24,5,7,46.8117,272.465,4.15114,2.8287,2.44717,11.17,5.27587,794,436,10.3717,Yes,FCC/HCP (α),Powder Metallurgy (Sintering),800°C/1h → Water Quench,Slow
63,24,5,8,47.0967,223.79,4.15225,2.82647,2.44545,11.47,5.27192,806,396,13.899,Yes,FCC/HCP (α),Arc Melting,1000°C/1h → Water Quench,Slow
62,24,5,9,48.0397,176.717,4.15338,2.82421,2.4437,11.77,5.26791,818,462,10.0529,Yes,FCC/HCP (α),Arc Melting,700°C/2h → Furnace Cool,Slow
61,24,5,10,49.4602,132.306,4.15453,2.82191,2.44193,12.07,5.26383,830,368,11.9717,Yes,FCC/HCP (α),Arc Melting,800°C/1h → Water Quench,Fast
60,24,5,11,51.2004,91.6231,4.15569,2.81957,2.44013,12.37,5.2597,842,387,11.4801,Yes,FCC/HCP (α),Cold Rolling + Annealing,500°C/4h → Air Cool,Fast
59,24,5,12,53.1332,55.649,4.15686,2.8172,2.4383,12.67,5.2555,854,480,13.5713,Yes,FCC/HCP (α),Powder Metallurgy (Sintering),500°C/4h → Air Cool,Fast
66,24,6,4,49.2917,389.477,4.14875,2.83734,2.45529,10.74,5.29263,768,423,10.5955,No,BCC (β),Arc Melting,700°C/2h → Furnace Cool,Slow
65,24,6,5,47.3865,340.808,4.14983,2.8352,2.45366,11.04,5.28886,780,462,9.13496,Yes,BCC (β),Cold Rolling + Annealing,500°C/4h → Air Cool,Slow
64,24,6,6,46.4688,292.026,4.15092,2.83304,2.452,11.34,5.28503,792,406,6.63571,Yes,FCC/HCP (α),Cold Rolling + Annealing,500°C/4h → Air Cool,Slow
63,24,6,7,46.4418,243.962,4.15203,2.83084,2.45031,11.64,5.28115,804,389,12.8684,Yes,FCC/HCP (α),Cold Rolling + Annealing,800°C/1h → Water Quench,Slow
62,24,6,8,47.1388,197.595,4.15315,2.82861,2.4486,11.94,5.27721,816,390,5.52827,Yes,FCC/HCP (α),Cold Rolling + Annealing,800°C/1h → Water Quench,Slow
61,24,6,9,48.377,153.983,4.15429,2.82635,2.44687,12.24,5.27322,828,465,12.9756,Yes,FCC/HCP (α),Arc Melting,800°C/1h → Water Quench,Slow
60,24,6,10,49.9888,114.186,4.15545,2.82405,2.44511,12.54,5.26916,840,373,14.9929,Yes,FCC/HCP (α),Laser Additive Manufacturing,800°C/1h → Water Quench,Fast
59,24,6,11,51.8363,79.1671,4.15662,2.82172,2.44332,12.84,5.26504,852,490,10.7283,Yes,FCC/HCP (α),Cold Rolling + Annealing,1000°C/1h → Water Quench,Fast
58,24,6,12,53.8131,49.7198,4.15782,2.81935,2.44151,13.14,5.26086,864,407,13.6451,Yes,FCC/HCP (α),Arc Melting,800°C/1h → Water Quench,Fast
65,24,7,4,47.5778,361.221,4.14961,2.83949,2.45843,11.21,5.29792,778,430,14.5145,Yes,BCC (β),Powder Metallurgy (Sintering),800°C/1h → Water Quench,Slow
64,24,7,5,46.2805,312.974,4.1507,2.83736,2.45681,11.51,5.29417,790,460,11.4941,Yes,FCC/HCP (α),Arc Melting,700°C/2h → Furnace Cool,Slow
63,24,7,6,45.9198,265.533,4.1518,2.8352,2.45516,11.81,5.29036,802,359,13.1025,Yes,FCC/HCP (α),Powder Metallurgy (Sintering),800°C/1h → Water Quench,Slow
62,24,7,7,46.3472,219.88,4.15292,2.833,2.45349,12.11,5.28649,814,427,13.8626,Yes,FCC/HCP (α),Powder Metallurgy (Sintering),500°C/4h → Air Cool,Slow
61,24,7,8,47.3809,177.073,4.15406,2.83077,2.4518,12.41,5.28257,826,382,11.5324,Yes,FCC/HCP (α),Arc Melting,700°C/2h → Furnace Cool,Slow
60,24,7,9,48.846,138.159,4.15521,2.82851,2.45008,12.71,5.27859,838,422,14.9499,Yes,FCC/HCP (α),Laser Additive Manufacturing,700°C/2h → Furnace Cool,Fast
59,24,7,10,50.5937,104.089,4.15638,2.82622,2.44833,13.01,5.27455,850,484,6.19333,Yes,FCC/HCP (α),Laser Additive Manufacturing,500°C/4h → Air Cool,Fast
58,24,7,11,52.5068,75.6318,4.15757,2.82389,2.44656,13.31,5.27045,862,424,11.1362,Yes,FCC/HCP (α),Cold Rolling + Annealing,500°C/4h → Air Cool,Fast
57,24,7,12,54.4978,53.3294,4.15878,2.82152,2.44476,13.61,5.26628,874,423,8.15594,Yes,FCC/HCP (α),Cold Rolling + Annealing,800°C/1h → Water Quench,Fast
64,24,8,4,46.2524,335.331,4.15047,2.84167,2.46161,11.68,5.30327,788,482,7.05921,Yes,FCC/HCP (α),Laser Additive Manufacturing,1000°C/1h → Water Quench,Slow
63,24,8,5,45.5386,288.519,4.15157,2.83954,2.46,11.98,5.29953,800,355,12.6913,Yes,FCC/HCP (α),Laser Additive Manufacturing,1000°C/1h → Water Quench,Slow
62,24,8,6,45.6726,243.584,4.15269,2.83738,2.45837,12.28,5.29574,812,475,14.4425,Yes,FCC/HCP (α),Powder Metallurgy (Sintering),500°C/4h → Air Cool,Slow
61,24,8,7,46.4791,201.578,4.15382,2.83519,2.45671,12.58,5.2919,824,358,6.99798,Yes,FCC/HCP (α),Cold Rolling + Annealing,1000°C/1h → Water Quench,Slow
60,24,8,8,47.7779,163.54,4.15498,2.83296,2.45503,12.88,5.28799,836,432,6.34601,Yes,FCC/HCP (α),Laser Additive Manufacturing,500°C/4h → Air Cool,Slow
59,24,8,9,49.41,130.401,4.15614,2.8307,2.45332,13.18,5.28403,848,375,5.39409,Yes,FCC/HCP (α),Cold Rolling + Annealing,500°C/4h → Air Cool,Fast
58,24,8,10,51.2471,102.911,4.15733,2.82841,2.45159,13.48,5.28,860,380,8.01073,Yes,FCC/HCP (α),Laser Additive Manufacturing,700°C/2h → Furnace Cool,Fast
57,24,8,11,53.192,81.5874,4.15853,2.82609,2.44983,13.78,5.27592,872,405,5.83567,Yes,FCC/HCP (α),Laser Additive Manufacturing,1000°C/1h → Water Quench,Fast
56,24,8,12,55.1738,66.6946,4.15975,2.82372,2.44805,14.08,5.27177,884,430,5.89047,Yes,FCC/HCP (α),Cold Rolling + Annealing,1000°C/1h → Water Quench,Fast
63,24,9,4,45.3054,312.926,4.15135,2.84387,2.46482,12.15,5.30869,798,499,11.4958,Yes,FCC/HCP (α),Powder Metallurgy (Sintering),700°C/2h → Furnace Cool,Slow
62,24,9,5,45.1233,268.703,4.15246,2.84174,2.46322,12.45,5.30497,810,365,6.31281,Yes,FCC/HCP (α),Arc Melting,700°C/2h → Furnace Cool,Slow
61,24,9,6,45.6791,227.488,4.15359,2.83959,2.46161,12.75,5.30119,822,483,8.01502,Yes,FCC/HCP (α),Arc Melting,800°C/1h → Water Quench,Slow
60,24,9,7,46.7907,190.307,4.15474,2.8374,2.45996,13.05,5.29736,834,495,14.5625,Yes,FCC/HCP (α),Laser Additive Manufacturing,700°C/2h → Furnace Cool,Slow
59,24,9,8,48.29,158.075,4.1559,2.83518,2.4583,13.35,5.29348,846,380,5.11707,Yes,FCC/HCP (α),Powder Metallurgy (Sintering),700°C/2h → Furnace Cool,Slow
58,24,9,9,50.0379,131.518,4.15709,2.83292,2.45661,13.65,5.28953,858,409,11.3724,Yes,FCC/HCP (α),Laser Additive Manufacturing,500°C/4h → Air Cool,Fast
57,24,9,10,51.9265,111.134,4.15829,2.83063,2.45489,13.95,5.28552,870,382,11.5305,Yes,FCC/HCP (α),Cold Rolling + Annealing,700°C/2h → Furnace Cool,Fast
56,24,9,11,53.8764,97.1616,4.1595,2.82831,2.45314,14.25,5.28145,882,441,12.1021,Yes,FCC/HCP (α),Laser Additive Manufacturing,700°C/2h → Furnace Cool,Fast
55,24,9,12,55.8314,89.6026,4.16074,2.82595,2.45137,14.55,5.27732,894,489,5.76628,Yes,FCC/HCP (α),Cold Rolling + Annealing,700°C/2h → Furnace Cool,Fast
62,24,10,4,44.707,295.22,4.15223,2.84609,2.46807,12.62,5.31416,808,401,10.7313,Yes,FCC/HCP (α),Laser Additive Manufacturing,500°C/4h → Air Cool,Slow
61,24,10,5,44.9885,254.776,4.15336,2.84397,2.46649,12.92,5.31046,820,456,11.1259,Yes,FCC/HCP (α),Cold Rolling + Annealing,1000°C/1h → Water Quench,Slow
60,24,10,6,45.891,218.426,4.1545,2.84182,2.46489,13.22,5.30671,832,420,7.96813,Yes,FCC/HCP (α),Laser Additive Manufacturing,800°C/1h → Water Quench,Slow
59,24,10,7,47.2392,187.066,4.15567,2.83964,2.46326,13.52,5.3029,844,490,12.5624,Yes,FCC/HCP (α),Laser Additive Manufacturing,500°C/4h → Air Cool,Slow
58,24,10,8,48.8831,161.401,4.15684,2.83742,2.46161,13.82,5.29903,856,360,5.15436,Yes,FCC/HCP (α),Arc Melting,800°C/1h → Water Quench,Slow
57,24,10,9,50.7043,141.904,4.15804,2.83517,2.45993,14.12,5.2951,868,479,10.533,Yes,FCC/HCP (α),Arc Melting,800°C/1h → Water Quench,Fast
56,24,10,10,52.614,128.795,4.15925,2.83288,2.45823,14.42,5.29111,880,459,13.3614,Yes,FCC/HCP (α),Laser Additive Manufacturing,1000°C/1h → Water Quench,Fast
55,24,10,11,54.5484,122.054,4.16049,2.83056,2.4565,14.72,5.28706,892,420,9.89788,Yes,FCC/HCP (α),Cold Rolling + Annealing,1000°C/1h → Water Quench,Fast
54,24,10,12,56.4633,121.458,4.16174,2.82821,2.45474,15.02,5.28295,904,473,12.0341,Yes,FCC/HCP (α),Powder Metallurgy (Sintering),1000°C/1h → Water Quench,Fast
61,24,11,4,44.4152,283.399,4.15313,2.84835,2.47136,13.09,5.31971,818,353,9.8076,Yes,FCC/HCP (α),Laser Additive Manufacturing,700°C/2h → Furnace Cool,Slow
60,24,11,5,45.0858,247.844,4.15427,2.84623,2.46979,13.39,5.31602,830,354,12.3844,Yes,FCC/HCP (α),Powder Metallurgy (Sintering),800°C/1h → Water Quench,Slow
59,24,11,6,46.2632,217.312,4.15543,2.84408,2.46821,13.69,5.31229,842,410,5.20626,Yes,FCC/HCP (α),Laser Additive Manufacturing,800°C/1h → Water Quench,Slow
58,24,11,7,47.7873,192.487,4.1566,2.8419,2.46659,13.99,5.3085,854,496,8.63882,Yes,FCC/HCP (α),Laser Additive Manufacturing,800°C/1h → Water Quench,Slow
57,24,11,8,49.5288,173.818,4.15779,2.83969,2.46496,14.29,5.30465,866,367,10.0391,Yes,FCC/HCP (α),Arc Melting,700°C/2h → Furnace Cool,Slow
56,24,11,9,51.3891,161.503,4.15901,2.83744,2.4633,14.59,5.30074,878,494,8.49216,Yes,FCC/HCP (α),Arc Melting,500°C/4h → Air Cool,Slow
55,24,11,10,53.2962,155.506,4.16024,2.83516,2.46161,14.89,5.29677,890,423,9.302,Yes,FCC/HCP (α),Powder Metallurgy (Sintering),700°C/2h → Furnace Cool,Slow
54,24,11,11,55.1994,155.587,4.16148,2.83284,2.4599,15.19,5.29274,902,449,13.2401,Yes,FCC/HCP (α),Arc Melting,500°C/4h → Air Cool,Slow
53,24,11,12,57.0648,161.353,4.16275,2.83049,2.45815,15.49,5.28864,914,497,14.8658,Yes,FCC/HCP (α),Cold Rolling + Annealing,1000°C/1h → Water Quench,Slow
60,24,12,4,44.3826,278.491,4.15404,2.85063,2.47468,13.56,5.32531,828,433,9.84378,Yes,FCC/HCP (α),Arc Melting,500°C/4h → Air Cool,Slow
59,24,12,5,45.3682,248.734,4.15519,2.84852,2.47314,13.86,5.32165,840,424,8.29234,Yes,FCC/HCP (α),Arc Melting,800°C/1h → Water Quench,Slow
58,24,12,6,46.7554,224.688,4.15636,2.84637,2.47156,14.16,5.31794,852,447,13.421,Yes,FCC/HCP (α),Laser Additive Manufacturing,1000°C/1h → Water Quench,Slow
57,24,12,7,48.4038,206.778,4.15755,2.8442,2.46997,14.46,5.31417,864,483,10.6722,Yes,FCC/HCP (α),Cold Rolling + Annealing,800°C/1h → Water Quench,Slow
56,24,12,8,50.2044,195.182,4.15876,2.84199,2.46835,14.76,5.31034,876,370,10.5659,Yes,FCC/HCP (α),Powder Metallurgy (Sintering),1000°C/1h → Water Quench,Slow
55,24,12,9,52.0765,189.845,4.15998,2.83974,2.4667,15.06,5.30645,888,371,9.15713,Yes,FCC/HCP (α),Arc Melting,700°C/2h → Furnace Cool,Slow
54,24,12,10,53.9627,190.514,4.16123,2.83747,2.46503,15.36,5.3025,900,377,10.1523,Yes,FCC/HCP (α),Arc Melting,500°C/4h → Air Cool,Slow
53,24,12,11,55.8234,196.786,4.16249,2.83515,2.46333,15.66,5.29849,912,390,8.43529,Yes,FCC/HCP (α),Cold Rolling + Annealing,700°C/2h → Furnace Cool,Slow
52,24,12,12,57.6327,208.153,4.16378,2.8328,2.46161,15.96,5.29441,924,488,12.7741,Yes,FCC/HCP (α),Powder Metallurgy (Sintering),700°C/2h → Furnace Cool,Slow